Folder: EISFitpython/EIS_Data/Example-2

Note: EIS_Data/Example-2/Example2b.txt
LAGP dynamicVT, 1.12.2020, 14:42
Fixed value(s) :  AC Volt  [Vrms]=7.1000e-03  
 Freq. [Hz]	 Zs' [Ohms]	 Zs'' [Ohms]
1.00000e+06	3.60382e+03	-8.57835e+03
7.54300e+05	5.10527e+03	-1.04285e+04
5.69000e+05	7.12607e+03	-1.23529e+04
4.29200e+05	9.73004e+03	-1.42599e+04
3.23700e+05	1.29396e+04	-1.59548e+04
2.44200e+05	1.66510e+04	-1.72849e+04
1.84200e+05	2.07469e+04	-1.79953e+04
1.38900e+05	2.49575e+04	-1.82290e+04
1.04800e+05	2.89988e+04	-1.77836e+04
7.90600e+04	3.27080e+04	-1.69068e+04
5.96400e+04	3.59335e+04	-1.57336e+04
4.49800e+04	3.87030e+04	-1.44635e+04
3.39300e+04	4.09725e+04	-1.32291e+04
2.56000e+04	4.28390e+04	-1.22866e+04
1.93100e+04	4.44174e+04	-1.16578e+04
1.45600e+04	4.58339e+04	-1.14233e+04
1.09900e+04	4.72219e+04	-1.15980e+04
8.28600e+03	4.87333e+04	-1.22048e+04
6.25100e+03	5.04913e+04	-1.31824e+04
4.71500e+03	5.26318e+04	-1.44803e+04
3.55600e+03	5.52873e+04	-1.59694e+04
2.68300e+03	5.85286e+04	-1.74301e+04
2.02400e+03	6.23716e+04	-1.86530e+04
1.52600e+03	6.66818e+04	-1.93663e+04
1.15100e+03	7.11952e+04	-1.93862e+04
8.68500e+02	7.55248e+04	-1.86673e+04
6.55100e+02	7.94264e+04	-1.73623e+04
4.94200e+02	8.26042e+04	-1.57237e+04
3.72800e+02	8.51092e+04	-1.41798e+04
2.81200e+02	8.69921e+04	-1.28494e+04
2.12100e+02	8.84070e+04	-1.19346e+04
1.60000e+02	8.95389e+04	-1.15559e+04
1.20700e+02	9.04749e+04	-1.17482e+04
9.10300e+01	9.13114e+04	-1.25708e+04
6.86600e+01	9.21276e+04	-1.41233e+04
5.17900e+01	9.30558e+04	-1.65314e+04
3.90700e+01	9.40205e+04	-1.97841e+04
2.94700e+01	9.51664e+04	-2.42342e+04
2.22300e+01	9.65378e+04	-3.01858e+04
1.67700e+01	9.82303e+04	-3.79254e+04
1.26500e+01	1.00274e+05	-4.80193e+04
9.54100e+00	1.02963e+05	-6.10285e+04
7.19700e+00	1.06310e+05	-7.78478e+04
5.42900e+00	1.10639e+05	-9.94614e+04
4.09500e+00	1.16136e+05	-1.27181e+05
3.08900e+00	1.23332e+05	-1.62797e+05
2.33000e+00	1.32656e+05	-2.08440e+05
1.75800e+00	1.44954e+05	-2.66679e+05
1.32600e+00	1.61167e+05	-3.41095e+05
1.00000e+00	1.82762e+05	-4.35920e+05

Note: EIS_Data/Example-2/Example2c.txt
s04147-120deg
Fixed value(s) :  AC Volt  [Vrms]=3.5000e-02  
   Freq.[Hz]   	Zs'[ohm]  	Zs''[ohm]
 1.00000e+06	 1.73627e+04	-6.88145e+04
 6.60030e+05	 2.73385e+04	-8.78597e+04
 4.35640e+05	 4.38517e+04	-1.25901e+05
 2.87530e+05	 7.32374e+04	-1.75181e+05
 1.89780e+05	 1.13301e+05	-2.26719e+05
 1.25260e+05	 1.60346e+05	-2.95212e+05
 8.26750e+04	 2.30750e+05	-3.70850e+05
 5.45680e+04	 3.16526e+05	-4.77087e+05
 3.60160e+04	 4.28174e+05	-5.97548e+05
 2.37720e+04	 5.72852e+05	-7.42788e+05
 1.56900e+04	 7.35342e+05	-9.11054e+05
 1.03560e+04	 9.48218e+05	-1.12854e+06
 6.83520e+03	 1.24026e+06	-1.41940e+06
 4.51140e+03	 1.61706e+06	-1.74600e+06
 2.97770e+03	 2.14117e+06	-2.11100e+06
 1.96530e+03	 2.86746e+06	-2.44207e+06
 1.29720e+03	 3.74500e+06	-2.63763e+06
 8.56170e+02	 4.62552e+06	-2.55748e+06
 5.65100e+02	 5.46200e+06	-2.31912e+06
 3.72980e+02	 6.09338e+06	-1.94731e+06
 2.46180e+02	 6.57398e+06	-1.56884e+06
 1.62480e+02	 6.86126e+06	-1.26157e+06
 1.07240e+02	 7.11166e+06	-1.03049e+06
 7.07840e+01	 7.28907e+06	-8.46081e+05
 4.67200e+01	 7.43414e+06	-7.10578e+05
 3.08360e+01	 7.56642e+06	-6.13674e+05
 2.03530e+01	 7.68418e+06	-5.50030e+05
 1.34330e+01	 7.79546e+06	-5.11618e+05
 8.86640e+00	 7.90108e+06	-4.95594e+05
 5.85210e+00	 8.01084e+06	-4.97624e+05
 3.86250e+00	 8.12569e+06	-5.12765e+05
 2.54940e+00	 8.24242e+06	-5.35220e+05
 1.68270e+00	 8.37360e+06	-5.71156e+05
 1.11060e+00	 8.51561e+06	-6.22337e+05
 7.33030e-01	 8.63904e+06	-6.93148e+05
 4.83820e-01	 8.77753e+06	-7.90096e+05
 3.19340e-01	 8.95120e+06	-9.15801e+05
 2.10770e-01	 9.14196e+06	-1.08248e+06
 1.39110e-01	 9.36027e+06	-1.30038e+06
 9.18200e-02	 9.62172e+06	-1.58391e+06
 6.06040e-02	 9.94594e+06	-1.95301e+06
 4.00000e-02	 1.03494e+07	-2.43174e+06

Note: README.md
# EISFitpython
EISFitpython is a Python package for Electrochemical Impedance Spectroscopy (EIS) analysis, optimized for temperature-dependent experiments and complex circuit models. It applies a unified chi-square optimization to fit multiple impedance datasets at once, preserving inter-parameter relationships and propagating uncertainties across the full temperature range.

## Key Features

Accurate modeling of temperature-dependent impedance demands consistent parameter evolution. EISFitpython delivers:

### Unified Optimization Framework

Standard EIS workflows fit each temperature in isolation, which can produce erratic parameter trends, biased activation-energy estimates, and incomplete error analysis. EISFitpython replaces this with a single global-local optimization:

- **Concurrent Dataset Fitting**  
  Reduces parameter inconsistency by optimizing all temperatures together.  
- **Global Parameters**  
  Keeps temperature-independent circuit elements constant across datasets.  
- **Local Parameters**  
  Allows temperature-dependent elements to adapt within physical constraints.  
- **Error Propagation**  
  Tracks uncertainty through every temperature step.
  
### Advanced Analysis Capabilities

- **Global-Local Parameter Classification**  
  Automatically labels each circuit element as temperature-independent or temperature-dependent.  
- **Unified Chi-Square Objective**  
  Optimizes all datasets against one cost function for consistency.  
- **Automated Classification**  
  Detects and assigns global vs. local roles without manual intervention.  
- **Statistical Validation**  
  Computes confidence intervals and parameter correlations.

## Citation

If you use this code in your research, please cite:
```
S. C. Adediwura, N. Mathew, J. Schmedt auf der Günne, J. Mater. Chem. A 12 (2024) 15847–15857.
https://doi.org/10.1039/d3ta06237f
```

# I. Theoretical Background

## Fundamentals of Electrochemical Impedance Spectroscopy

Electrochemical Impedance Spectroscopy (EIS) is a powerful analytical technique that characterizes the electrical properties of materials and their interfaces with electronically conducting electrodes. The technique involves:

1. **Signal Application**: 
   $$E(t) = E_0\sin(\omega t)$$

2. **System Response**: 
   $$I(t) = I_0\sin(\omega t + \phi)$$

3. **Impedance Calculation**: 
   $$Z(\omega) = \frac{E(t)}{I(t)} = |Z|e^{j\phi} = Z' + jZ''$$

Where:
- $\omega = 2\pi f$ is the angular frequency
- $\phi$ is the phase shift
- $|Z|$ is the impedance magnitude
- $Z'$ and $Z''$ are real and imaginary components

## Complex Nonlinear Least-Squares Fitting

Electrochemical Impedance Spectroscopy (EIS) represents a non-linear system where impedance data must be fitted using complex non-linear least-squares (CNLS) analysis to extract meaningful physical parameters. The CNLS technique operates by minimizing a sum of squares function S, which quantifies the differ

File: Example2a.txt
s05751_25deg, 26.02.2025, 15:11
Diameter[mm]: 1.300e+01  Thickness[mm]: 7.500e-01  Spacer Capacity[pF]: 0.000e+00  Spacer Area[mm^2] 0.000e+00  Edge Correction On  Electrode Thickness[mm]: 4.00e+00
Fixed value(s) :  AC Volt  [Vrms]=7.1000e-03
     Freq.[Hz]	      Zs'[ohm]	     Zs''[ohm]
 1e+06	 3805.59	-6318.06
 740530	 4688.15	-7845.94
 548380	 5868.02	-9679.41
 406090	 7498.58	-11842.3
 300730	 9615.29	-14189.9
 222700	 12388.6	-16886.5
 164910	 15855.3	-19586.5
 122120	 20057	-22305.7
 90436	 25053.5	-24780.8
 66970	 30709.7	-27031
 49593	 36987.9	-28702.7
 36725	 43716.3	-29689.5
 27196	 50606.5	-29908.8
 20140	 57497.1	-29330.7
 14914	 64032.4	-27979.6
 11044	 70044.2	-26053.5
 8178.6	 75419.1	-23675.7
 6056.5	 79960.7	-21026.7
 4485	 83711.4	-18327
 3321.3	 86705.7	-15750.4
 2459.5	 89083.3	-13459.5
 1821.3	 90948	-11500.8
 1348.8	 92434.4	-9902.52
 998.79	 93659.8	-8690.21
 739.64	 94714.9	-7757.01
 547.72	 95664.2	-7140.39
 405.6	 96569.1	-6766.17
 300.36	 97453.6	-6619.71
 222.43	 98358	-6649.11
 164.71	 99333.4	-6872.38
 121.98	 100356	-7266.44
 90.326	 101446	-7835.17
 66.889	 102640	-8577.78
 49.534	 103947	-9560.02
 36.681	 105378	-10808
 27.163	 106993	-12339.5
 20.115	 108811	-14214.2
 14.896	 110892	-16517.3
 11.031	 113303	-19337.7
 8.1687	 116110	-22740.1
 6.0492	 119423	-26882.5
 4.4796	 123351	-31857
 3.3173	 128033	-37842.6
 2.4565	 133631	-45004.9
 1.8191	 140335	-53513.8
 1.3471	 148481	-63661.8
 0.99759	 157900	-75851.8
 0.73874	 169218	-89925.5
 0.54706	 182837	-106778
 0.40511	 198988	-126909
 0.3	 218315	-150821